date	time	group	subject	build	blocknum	trialnum	blockcode	trialcode	pretrialpause	posttrialpause	windowcenter	trialduration	trialtimeout	blocktimeout	response	correct	latency	inwindow	stimulusnumber1	stimulusitem1	stimulusvpos1	stimulushpos1	stimulusonset1	stimulusnumber2	stimulusitem2	stimulusvpos2	stimulushpos2	stimulusonset2	stimulusnumber3	stimulusitem3	stimulusvpos3	stimulushpos3	stimulusonset3	stimulusnumber4	stimulusitem4	stimulusvpos4	stimulushpos4	stimulusonset4	stimulusnumber5	stimulusitem5	stimulusvpos5	stimulushpos5	stimulusonset5
122717	20:51:55	1	1	4.0.10.0	1	1	dotblk	dotshow	0	0	0	2000	0	0	0	0	2000	0	1	♥	16.6700000000000017053pct	16.6700000000000017053pct	-8	1	♥	50pct	50pct	-8	1	♥	83.3299999999999982947pct	83.3299999999999982947pct	-8	0	0	0	0	0	0	0	0	0	0
122717	20:51:55	1	1	4.0.10.0	1	2	dotblk	dotrecall	0	0	0	0	0	0	reset	0	68	0	1	♥	16.6700000000000017053pct	16.6700000000000017053pct	-16	1	♥	50pct	50pct	-16	1	♥	83.3299999999999982947pct	83.3299999999999982947pct	-16	1	重置	99.5pct	35pct	-16	1	完成	99.5pct	65pct	-16
122717	20:51:55	1	1	4.0.10.0	1	3	dotblk	dotshow	0	0	0	2000	0	0	0	0	2000	0	1	♥	16.6700000000000017053pct	16.6700000000000017053pct	-16	1	♥	50pct	50pct	-16	1	♥	83.3299999999999982947pct	83.3299999999999982947pct	-16	0	0	0	0	0	0	0	0	0	0
122717	20:51:55	1	1	4.0.10.0	1	4	dotblk	dotrecall	0	0	0	0	0	0	39	0	56	0	1	♥	16.6700000000000017053pct	16.6700000000000017053pct	-16	1	♥	50pct	50pct	-16	1	♥	83.3299999999999982947pct	83.3299999999999982947pct	-16	1	重置	99.5pct	35pct	-16	1	完成	99.5pct	65pct	-16
122717	20:51:55	1	1	4.0.10.0	1	5	dotblk	dotshow	0	0	0	2000	0	0	0	0	2000	0	1	♥	16.6700000000000017053pct	16.6700000000000017053pct	-16	1	♥	50pct	50pct	-16	1	♥	83.3299999999999982947pct	83.3299999999999982947pct	-16	0	0	0	0	0	0	0	0	0	0
122717	20:51:55	1	1	4.0.10.0	1	6	dotblk	dotrecall	0	0	0	0	0	0	35	0	23	0	1	♥	16.6700000000000017053pct	16.6700000000000017053pct	-16	1	♥	50pct	50pct	-16	1	♥	83.3299999999999982947pct	83.3299999999999982947pct	-16	1	重置	99.5pct	35pct	-16	1	完成	99.5pct	65pct	-16
122717	20:51:55	1	1	4.0.10.0	1	7	dotblk	dotshow	0	0	0	2000	0	0	0	0	2000	0	1	♥	16.6700000000000017053pct	16.6700000000000017053pct	-16	1	♥	50pct	50pct	-16	1	♥	83.3299999999999982947pct	83.3299999999999982947pct	-16	0	0	0	0	0	0	0	0	0	0
122717	20:51:55	1	1	4.0.10.0	1	8	dotblk	dotrecall	0	0	0	0	0	0	31	0	34	0	1	♥	16.6700000000000017053pct	16.6700000000000017053pct	-16	1	♥	50pct	50pct	-16	1	♥	83.3299999999999982947pct	83.3299999999999982947pct	-16	1	重置	99.5pct	35pct	-16	1	完成	99.5pct	65pct	-16
122717	20:51:55	1	1	4.0.10.0	1	9	dotblk	dotshow	0	0	0	2000	0	0	0	0	2000	0	1	♥	16.6700000000000017053pct	16.6700000000000017053pct	-16	1	♥	50pct	50pct	-16	1	♥	83.3299999999999982947pct	83.3299999999999982947pct	-16	0	0	0	0	0	0	0	0	0	0
122717	20:51:55	1	1	4.0.10.0	1	10	dotblk	dotrecall	0	0	0	0	0	0	done	0	51	0	1	♥	16.6700000000000017053pct	16.6700000000000017053pct	-16	1	♥	50pct	50pct	-16	1	♥	83.3299999999999982947pct	83.3299999999999982947pct	-16	1	重置	99.5pct	35pct	-16	1	完成	99.5pct	65pct	-16
122717	20:54:15	1	1	4.0.10.0	1	1	dotblk	dotshow	0	0	0	2000	0	0	0	0	2000	0	1	♥	16.6700000000000017053pct	16.6700000000000017053pct	-7	1	♥	50pct	50pct	-7	1	♥	83.3299999999999982947pct	83.3299999999999982947pct	-7	0	0	0	0	0	0	0	0	0	0
122717	20:54:15	1	1	4.0.10.0	1	2	dotblk	dotrecall	0	0	0	0	0	0	31	0	67	0	1	♥	16.6700000000000017053pct	16.6700000000000017053pct	-16	1	♥	50pct	50pct	-16	1	♥	83.3299999999999982947pct	83.3299999999999982947pct	-16	1	重置	99.5pct	35pct	-16	1	完成	99.5pct	65pct	-16
122717	20:54:15	1	1	4.0.10.0	1	3	dotblk	dotshow	0	0	0	2000	0	0	0	0	2000	0	1	♥	16.6700000000000017053pct	16.6700000000000017053pct	-16	1	♥	50pct	50pct	-16	1	♥	83.3299999999999982947pct	83.3299999999999982947pct	-16	0	0	0	0	0	0	0	0	0	0
122717	20:54:15	1	1	4.0.10.0	1	4	dotblk	dotrecall	0	0	0	0	0	0	35	0	50	0	1	♥	16.6700000000000017053pct	16.6700000000000017053pct	-16	1	♥	50pct	50pct	-16	1	♥	83.3299999999999982947pct	83.3299999999999982947pct	-16	1	重置	99.5pct	35pct	-16	1	完成	99.5pct	65pct	-16
122717	20:54:15	1	1	4.0.10.0	1	5	dotblk	dotshow	0	0	0	2000	0	0	0	0	2000	0	1	♥	16.6700000000000017053pct	16.6700000000000017053pct	-16	1	♥	50pct	50pct	-16	1	♥	83.3299999999999982947pct	83.3299999999999982947pct	-16	0	0	0	0	0	0	0	0	0	0
122717	20:54:15	1	1	4.0.10.0	1	6	dotblk	dotrecall	0	0	0	0	0	0	35	0	46	0	1	♥	16.6700000000000017053pct	16.6700000000000017053pct	-16	1	♥	50pct	50pct	-16	1	♥	83.3299999999999982947pct	83.3299999999999982947pct	-16	1	重置	99.5pct	35pct	-16	1	完成	99.5pct	65pct	-16
122717	20:54:15	1	1	4.0.10.0	1	7	dotblk	dotshow	0	0	0	2000	0	0	0	0	2000	0	1	♥	16.6700000000000017053pct	16.6700000000000017053pct	-16	1	♥	50pct	50pct	-16	1	♥	83.3299999999999982947pct	83.3299999999999982947pct	-16	0	0	0	0	0	0	0	0	0	0
122717	20:54:15	1	1	4.0.10.0	1	8	dotblk	dotrecall	0	0	0	0	0	0	35	0	49	0	1	♥	16.6700000000000017053pct	16.6700000000000017053pct	-16	1	♥	50pct	50pct	-16	1	♥	83.3299999999999982947pct	83.3299999999999982947pct	-16	1	重置	99.5pct	35pct	-16	1	完成	99.5pct	65pct	-16
122717	20:54:15	1	1	4.0.10.0	1	9	dotblk	dotshow	0	0	0	2000	0	0	0	0	2000	0	1	♥	16.6700000000000017053pct	16.6700000000000017053pct	-15	1	♥	50pct	50pct	-15	1	♥	83.3299999999999982947pct	83.3299999999999982947pct	-15	0	0	0	0	0	0	0	0	0	0
122717	20:54:15	1	1	4.0.10.0	1	10	dotblk	dotrecall	0	0	0	0	0	0	done	0	37	0	1	♥	16.6700000000000017053pct	16.6700000000000017053pct	-16	1	♥	50pct	50pct	-16	1	♥	83.3299999999999982947pct	83.3299999999999982947pct	-16	1	重置	99.5pct	35pct	-16	1	完成	99.5pct	65pct	-16
122717	20:56:31	1	1	4.0.10.0	1	1	dotblk	dotshow	0	0	0	2000	0	0	0	0	2000	0	1	♥	16.6700000000000017053pct	16.6700000000000017053pct	-6	1	♥	50pct	50pct	-6	1	♥	83.3299999999999982947pct	83.3299999999999982947pct	-6	0	0	0	0	0	0	0	0	0	0
122717	20:56:31	1	1	4.0.10.0	1	2	dotblk	dotrecall	0	0	0	0	0	0	39	0	54	0	1	♥	16.6700000000000017053pct	16.6700000000000017053pct	-16	1	♥	50pct	50pct	-16	1	♥	83.3299999999999982947pct	83.3299999999999982947pct	-16	1	重置	99.5pct	35pct	-16	1	完成	99.5pct	65pct	-16
122717	20:56:31	1	1	4.0.10.0	1	3	dotblk	dotshow	0	0	0	2000	0	0	0	0	2000	0	1	♥	16.6700000000000017053pct	16.6700000000000017053pct	-16	1	♥	50pct	50pct	-16	1	♥	83.3299999999999982947pct	83.3299999999999982947pct	-16	0	0	0	0	0	0	0	0	0	0
122717	20:56:31	1	1	4.0.10.0	1	4	dotblk	dotrecall	0	0	0	0	0	0	done	0	44	0	1	♥	16.6700000000000017053pct	16.6700000000000017053pct	-16	1	♥	50pct	50pct	-16	1	♥	83.3299999999999982947pct	83.3299999999999982947pct	-16	1	重置	99.5pct	35pct	-16	1	完成	99.5pct	65pct	-16
122717	20:56:31	1	1	4.0.10.0	1	5	dotblk	dotshow	0	0	0	2000	0	0	0	0	2000	0	1	♥	16.6700000000000017053pct	16.6700000000000017053pct	-16	1	♥	50pct	50pct	-16	1	♥	83.3299999999999982947pct	83.3299999999999982947pct	-16	0	0	0	0	0	0	0	0	0	0
122717	20:56:31	1	1	4.0.10.0	1	6	dotblk	dotrecall	0	0	0	0	0	0	35	0	52	0	1	♥	16.6700000000000017053pct	16.6700000000000017053pct	-15	1	♥	50pct	50pct	-15	1	♥	83.3299999999999982947pct	83.3299999999999982947pct	-15	1	重置	99.5pct	35pct	-15	1	完成	99.5pct	65pct	-15
122717	20:56:31	1	1	4.0.10.0	1	7	dotblk	dotshow	0	0	0	2000	0	0	0	0	2000	0	1	♥	16.6700000000000017053pct	16.6700000000000017053pct	-16	1	♥	50pct	50pct	-16	1	♥	83.3299999999999982947pct	83.3299999999999982947pct	-16	0	0	0	0	0	0	0	0	0	0
122717	20:56:31	1	1	4.0.10.0	1	8	dotblk	dotrecall	0	0	0	0	0	0	39	0	46	0	1	♥	16.6700000000000017053pct	16.6700000000000017053pct	-16	1	♥	50pct	50pct	-16	1	♥	83.3299999999999982947pct	83.3299999999999982947pct	-16	1	重置	99.5pct	35pct	-16	1	完成	99.5pct	65pct	-16
122717	20:56:31	1	1	4.0.10.0	1	9	dotblk	dotshow	0	0	0	2000	0	0	0	0	2000	0	1	♥	16.6700000000000017053pct	16.6700000000000017053pct	-16	1	♥	50pct	50pct	-16	1	♥	83.3299999999999982947pct	83.3299999999999982947pct	-16	0	0	0	0	0	0	0	0	0	0
122717	20:56:31	1	1	4.0.10.0	1	10	dotblk	dotrecall	0	0	0	0	0	0	31	0	51	0	1	♥	16.6700000000000017053pct	16.6700000000000017053pct	-16	1	♥	50pct	50pct	-16	1	♥	83.3299999999999982947pct	83.3299999999999982947pct	-16	1	重置	99.5pct	35pct	-16	1	完成	99.5pct	65pct	-16
122717	20:57:36	1	1	4.0.10.0	1	1	dotblk	dotshow	0	0	0	300	0	0	0	0	300	0	1	♥	16.6700000000000017053pct	16.6700000000000017053pct	-7	1	♥	50pct	50pct	-7	1	♥	83.3299999999999982947pct	83.3299999999999982947pct	-7	0	0	0	0	0	0	0	0	0	0
122717	20:57:36	1	1	4.0.10.0	1	2	dotblk	dotrecall	0	0	0	0	0	0	done	0	57	0	1	♥	16.6700000000000017053pct	16.6700000000000017053pct	-16	1	♥	50pct	50pct	-16	1	♥	83.3299999999999982947pct	83.3299999999999982947pct	-16	1	重置	99.5pct	35pct	-16	1	完成	99.5pct	65pct	-16
122717	20:57:36	1	1	4.0.10.0	1	3	dotblk	dotshow	0	0	0	300	0	0	0	0	300	0	1	♥	16.6700000000000017053pct	16.6700000000000017053pct	-16	1	♥	50pct	50pct	-16	1	♥	83.3299999999999982947pct	83.3299999999999982947pct	-16	0	0	0	0	0	0	0	0	0	0
122717	20:57:36	1	1	4.0.10.0	1	4	dotblk	dotrecall	0	0	0	0	0	0	39	0	67	0	1	♥	16.6700000000000017053pct	16.6700000000000017053pct	-16	1	♥	50pct	50pct	-16	1	♥	83.3299999999999982947pct	83.3299999999999982947pct	-16	1	重置	99.5pct	35pct	-16	1	完成	99.5pct	65pct	-16
122717	20:57:36	1	1	4.0.10.0	1	5	dotblk	dotshow	0	0	0	300	0	0	0	0	300	0	1	♥	16.6700000000000017053pct	16.6700000000000017053pct	-16	1	♥	50pct	50pct	-16	1	♥	83.3299999999999982947pct	83.3299999999999982947pct	-16	0	0	0	0	0	0	0	0	0	0
122717	20:57:36	1	1	4.0.10.0	1	6	dotblk	dotrecall	0	0	0	0	0	0	done	0	43	0	1	♥	16.6700000000000017053pct	16.6700000000000017053pct	-16	1	♥	50pct	50pct	-16	1	♥	83.3299999999999982947pct	83.3299999999999982947pct	-16	1	重置	99.5pct	35pct	-16	1	完成	99.5pct	65pct	-16
122717	20:57:36	1	1	4.0.10.0	1	7	dotblk	dotshow	0	0	0	300	0	0	0	0	300	0	1	♥	16.6700000000000017053pct	16.6700000000000017053pct	-16	1	♥	50pct	50pct	-16	1	♥	83.3299999999999982947pct	83.3299999999999982947pct	-16	0	0	0	0	0	0	0	0	0	0
122717	20:57:36	1	1	4.0.10.0	1	8	dotblk	dotrecall	0	0	0	0	0	0	35	0	45	0	1	♥	16.6700000000000017053pct	16.6700000000000017053pct	-16	1	♥	50pct	50pct	-16	1	♥	83.3299999999999982947pct	83.3299999999999982947pct	-16	1	重置	99.5pct	35pct	-16	1	完成	99.5pct	65pct	-16
122717	20:57:36	1	1	4.0.10.0	1	9	dotblk	dotshow	0	0	0	300	0	0	0	0	300	0	1	♥	16.6700000000000017053pct	16.6700000000000017053pct	-16	1	♥	50pct	50pct	-16	1	♥	83.3299999999999982947pct	83.3299999999999982947pct	-16	0	0	0	0	0	0	0	0	0	0
122717	20:57:36	1	1	4.0.10.0	1	10	dotblk	dotrecall	0	0	0	0	0	0	35	0	56	0	1	♥	16.6700000000000017053pct	16.6700000000000017053pct	-16	1	♥	50pct	50pct	-16	1	♥	83.3299999999999982947pct	83.3299999999999982947pct	-16	1	重置	99.5pct	35pct	-16	1	完成	99.5pct	65pct	-16
122717	20:58:45	1	1	4.0.10.0	1	1	dotblk	dotshow	0	0	0	300	0	0	0	0	300	0	1	♥	16.6700000000000017053pct	16.6700000000000017053pct	-6	1	♥	50pct	50pct	-6	1	♥	83.3299999999999982947pct	83.3299999999999982947pct	-6	0	0	0	0	0	0	0	0	0	0
122717	20:58:45	1	1	4.0.10.0	1	2	dotblk	dotrecall	0	0	0	0	0	0	done	0	5376	0	1	♥	16.6700000000000017053pct	16.6700000000000017053pct	-16	1	♥	50pct	50pct	-16	1	♥	83.3299999999999982947pct	83.3299999999999982947pct	-16	1	重置	99.5pct	35pct	-16	1	完成	99.5pct	65pct	-16
122717	20:58:45	1	1	4.0.10.0	1	3	dotblk	dotshow	0	0	0	300	0	0	0	0	300	0	1	♥	16.6700000000000017053pct	16.6700000000000017053pct	-16	1	♥	50pct	50pct	-16	1	♥	83.3299999999999982947pct	83.3299999999999982947pct	-16	0	0	0	0	0	0	0	0	0	0
122717	20:58:45	1	1	4.0.10.0	1	4	dotblk	dotrecall	0	0	0	0	0	0	35	0	1209	0	1	♥	16.6700000000000017053pct	16.6700000000000017053pct	-16	1	♥	50pct	50pct	-16	1	♥	83.3299999999999982947pct	83.3299999999999982947pct	-16	1	重置	99.5pct	35pct	-16	1	完成	99.5pct	65pct	-16
122717	20:58:45	1	1	4.0.10.0	1	5	dotblk	dotshow	0	0	0	300	0	0	0	0	300	0	1	♥	16.6700000000000017053pct	16.6700000000000017053pct	-16	1	♥	50pct	50pct	-16	1	♥	83.3299999999999982947pct	83.3299999999999982947pct	-16	0	0	0	0	0	0	0	0	0	0
122717	20:58:45	1	1	4.0.10.0	1	6	dotblk	dotrecall	0	0	0	0	0	0	39	0	1059	0	1	♥	16.6700000000000017053pct	16.6700000000000017053pct	-16	1	♥	50pct	50pct	-16	1	♥	83.3299999999999982947pct	83.3299999999999982947pct	-16	1	重置	99.5pct	35pct	-16	1	完成	99.5pct	65pct	-16
122717	20:58:45	1	1	4.0.10.0	1	7	dotblk	dotshow	0	0	0	300	0	0	0	0	300	0	1	♥	16.6700000000000017053pct	16.6700000000000017053pct	-16	1	♥	50pct	50pct	-16	1	♥	83.3299999999999982947pct	83.3299999999999982947pct	-16	0	0	0	0	0	0	0	0	0	0
122717	20:58:45	1	1	4.0.10.0	1	8	dotblk	dotrecall	0	0	0	0	0	0	39	0	411	0	1	♥	16.6700000000000017053pct	16.6700000000000017053pct	-16	1	♥	50pct	50pct	-16	1	♥	83.3299999999999982947pct	83.3299999999999982947pct	-16	1	重置	99.5pct	35pct	-16	1	完成	99.5pct	65pct	-16
122717	20:58:45	1	1	4.0.10.0	1	9	dotblk	dotshow	0	0	0	300	0	0	0	0	300	0	1	♥	16.6700000000000017053pct	16.6700000000000017053pct	-16	1	♥	50pct	50pct	-16	1	♥	83.3299999999999982947pct	83.3299999999999982947pct	-16	0	0	0	0	0	0	0	0	0	0
122717	20:58:45	1	1	4.0.10.0	1	10	dotblk	dotrecall	0	0	0	0	0	0	39	0	381	0	1	♥	16.6700000000000017053pct	16.6700000000000017053pct	-16	1	♥	50pct	50pct	-16	1	♥	83.3299999999999982947pct	83.3299999999999982947pct	-16	1	重置	99.5pct	35pct	-16	1	完成	99.5pct	65pct	-16
122717	21:00:21	1	1	4.0.10.0	1	1	dotblk	dotshow	0	0	0	300	0	0	0	0	300	0	1	♥	16.6700000000000017053pct	16.6700000000000017053pct	-8	1	♥	50pct	50pct	-8	1	♥	83.3299999999999982947pct	83.3299999999999982947pct	-8	0	0	0	0	0	0	0	0	0	0
122717	21:00:21	1	1	4.0.10.0	1	2	dotblk	dotrecall	0	0	0	0	0	0	39	0	58	0	1	♥	16.6700000000000017053pct	16.6700000000000017053pct	-16	1	♥	50pct	50pct	-16	1	♥	83.3299999999999982947pct	83.3299999999999982947pct	-16	1	重置	99.5pct	35pct	-16	1	完成	99.5pct	65pct	-16
122717	21:00:21	1	1	4.0.10.0	1	3	dotblk	dotshow	0	0	0	300	0	0	0	0	300	0	1	♥	16.6700000000000017053pct	16.6700000000000017053pct	-16	1	♥	50pct	50pct	-16	1	♥	83.3299999999999982947pct	83.3299999999999982947pct	-16	0	0	0	0	0	0	0	0	0	0
122717	21:00:21	1	1	4.0.10.0	1	4	dotblk	dotrecall	0	0	0	0	0	0	39	0	19	0	1	♥	16.6700000000000017053pct	16.6700000000000017053pct	-16	1	♥	50pct	50pct	-16	1	♥	83.3299999999999982947pct	83.3299999999999982947pct	-16	1	重置	99.5pct	35pct	-16	1	完成	99.5pct	65pct	-16
122717	21:00:21	1	1	4.0.10.0	1	5	dotblk	dotshow	0	0	0	300	0	0	0	0	300	0	1	♥	16.6700000000000017053pct	16.6700000000000017053pct	-16	1	♥	50pct	50pct	-16	1	♥	83.3299999999999982947pct	83.3299999999999982947pct	-16	0	0	0	0	0	0	0	0	0	0
122717	21:00:21	1	1	4.0.10.0	1	6	dotblk	dotrecall	0	0	0	0	0	0	35	0	51	0	1	♥	16.6700000000000017053pct	16.6700000000000017053pct	-16	1	♥	50pct	50pct	-16	1	♥	83.3299999999999982947pct	83.3299999999999982947pct	-16	1	重置	99.5pct	35pct	-16	1	完成	99.5pct	65pct	-16
122717	21:00:21	1	1	4.0.10.0	1	7	dotblk	dotshow	0	0	0	300	0	0	0	0	300	0	1	♥	16.6700000000000017053pct	16.6700000000000017053pct	-16	1	♥	50pct	50pct	-16	1	♥	83.3299999999999982947pct	83.3299999999999982947pct	-16	0	0	0	0	0	0	0	0	0	0
122717	21:00:21	1	1	4.0.10.0	1	8	dotblk	dotrecall	0	0	0	0	0	0	35	0	27	0	1	♥	16.6700000000000017053pct	16.6700000000000017053pct	-16	1	♥	50pct	50pct	-16	1	♥	83.3299999999999982947pct	83.3299999999999982947pct	-16	1	重置	99.5pct	35pct	-16	1	完成	99.5pct	65pct	-16
122717	21:00:21	1	1	4.0.10.0	1	9	dotblk	dotshow	0	0	0	300	0	0	0	0	300	0	1	♥	16.6700000000000017053pct	16.6700000000000017053pct	-16	1	♥	50pct	50pct	-16	1	♥	83.3299999999999982947pct	83.3299999999999982947pct	-16	0	0	0	0	0	0	0	0	0	0
122717	21:00:21	1	1	4.0.10.0	1	10	dotblk	dotrecall	0	0	0	0	0	0	31	0	43	0	1	♥	16.6700000000000017053pct	16.6700000000000017053pct	-16	1	♥	50pct	50pct	-16	1	♥	83.3299999999999982947pct	83.3299999999999982947pct	-16	1	重置	99.5pct	35pct	-16	1	完成	99.5pct	65pct	-16
122717	21:01:07	1	1	4.0.10.0	1	1	dotblk	dotshow	0	0	0	300	0	0	0	0	300	0	1	♥	16.6700000000000017053pct	16.6700000000000017053pct	-7	1	♥	50pct	50pct	-7	1	♥	83.3299999999999982947pct	83.3299999999999982947pct	-7	0	0	0	0	0	0	0	0	0	0
122717	21:01:07	1	1	4.0.10.0	1	2	dotblk	dotrecall	0	0	0	0	0	0	done	0	57	0	1	♥	16.6700000000000017053pct	16.6700000000000017053pct	-15	1	♥	50pct	50pct	-15	1	♥	83.3299999999999982947pct	83.3299999999999982947pct	-15	1	重置	99.5pct	35pct	-15	1	完成	99.5pct	65pct	-15
122717	21:01:07	1	1	4.0.10.0	1	3	dotblk	dotshow	0	0	0	300	0	0	0	0	300	0	1	♥	16.6700000000000017053pct	16.6700000000000017053pct	-16	1	♥	50pct	50pct	-16	1	♥	83.3299999999999982947pct	83.3299999999999982947pct	-16	0	0	0	0	0	0	0	0	0	0
122717	21:01:07	1	1	4.0.10.0	1	4	dotblk	dotrecall	0	0	0	0	0	0	35	0	40	0	1	♥	16.6700000000000017053pct	16.6700000000000017053pct	-16	1	♥	50pct	50pct	-16	1	♥	83.3299999999999982947pct	83.3299999999999982947pct	-16	1	重置	99.5pct	35pct	-16	1	完成	99.5pct	65pct	-16
122717	21:01:07	1	1	4.0.10.0	1	5	dotblk	dotshow	0	0	0	300	0	0	0	0	300	0	1	♥	16.6700000000000017053pct	16.6700000000000017053pct	-16	1	♥	50pct	50pct	-16	1	♥	83.3299999999999982947pct	83.3299999999999982947pct	-16	0	0	0	0	0	0	0	0	0	0
122717	21:01:07	1	1	4.0.10.0	1	6	dotblk	dotrecall	0	0	0	0	0	0	39	0	35	0	1	♥	16.6700000000000017053pct	16.6700000000000017053pct	-16	1	♥	50pct	50pct	-16	1	♥	83.3299999999999982947pct	83.3299999999999982947pct	-16	1	重置	99.5pct	35pct	-16	1	完成	99.5pct	65pct	-16
122717	21:01:07	1	1	4.0.10.0	1	7	dotblk	dotshow	0	0	0	300	0	0	0	0	300	0	1	♥	16.6700000000000017053pct	16.6700000000000017053pct	-16	1	♥	50pct	50pct	-16	1	♥	83.3299999999999982947pct	83.3299999999999982947pct	-16	0	0	0	0	0	0	0	0	0	0
122717	21:01:07	1	1	4.0.10.0	1	8	dotblk	dotrecall	0	0	0	0	0	0	reset	0	42	0	1	♥	16.6700000000000017053pct	16.6700000000000017053pct	-16	1	♥	50pct	50pct	-16	1	♥	83.3299999999999982947pct	83.3299999999999982947pct	-16	1	重置	99.5pct	35pct	-16	1	完成	99.5pct	65pct	-16
122717	21:01:07	1	1	4.0.10.0	1	9	dotblk	dotshow	0	0	0	300	0	0	0	0	300	0	1	♥	16.6700000000000017053pct	16.6700000000000017053pct	-16	1	♥	50pct	50pct	-16	1	♥	83.3299999999999982947pct	83.3299999999999982947pct	-16	0	0	0	0	0	0	0	0	0	0
122717	21:01:07	1	1	4.0.10.0	1	10	dotblk	dotrecall	0	0	0	0	0	0	39	0	66	0	1	♥	16.6700000000000017053pct	16.6700000000000017053pct	-16	1	♥	50pct	50pct	-16	1	♥	83.3299999999999982947pct	83.3299999999999982947pct	-16	1	重置	99.5pct	35pct	-16	1	完成	99.5pct	65pct	-16
