date	time	group	subject	build	blocknum	trialnum	blockcode	trialcode	pretrialpause	posttrialpause	windowcenter	trialduration	trialtimeout	blocktimeout	response	correct	latency	inwindow	stimulusnumber1	stimulusitem1	stimulusvpos1	stimulushpos1	stimulusonset1
122717	16:00:37	1	1	4.0.10.0	1	1	storyblk	storytrial	500	0	0	0	0	0	255	0	41	0	6	6.jpg	50pct	50pct	-15
122717	16:00:37	1	1	4.0.10.0	1	2	storyblk	marktrial	0	0	0	0	0	0	255	0	18	0	1	mark.jpg	50pct	50pct	-16
122717	16:00:37	1	1	4.0.10.0	1	3	storyblk	storytrial	500	0	0	0	0	0	255	0	57	0	8	8.jpg	50pct	50pct	-16
122717	16:00:37	1	1	4.0.10.0	1	4	storyblk	marktrial	0	0	0	0	0	0	255	0	36	0	1	mark.jpg	50pct	50pct	-16
122717	16:00:37	1	1	4.0.10.0	1	5	storyblk	storytrial	500	0	0	0	0	0	255	0	26	0	2	2.jpg	50pct	50pct	-16
122717	16:00:37	1	1	4.0.10.0	1	6	storyblk	marktrial	0	0	0	0	0	0	255	0	19	0	1	mark.jpg	50pct	50pct	-16
122717	16:00:37	1	1	4.0.10.0	1	7	storyblk	storytrial	500	0	0	0	0	0	255	0	45	0	4	4.jpg	50pct	50pct	-15
122717	16:00:37	1	1	4.0.10.0	1	8	storyblk	marktrial	0	0	0	0	0	0	255	0	48	0	1	mark.jpg	50pct	50pct	-16
122717	16:00:37	1	1	4.0.10.0	1	9	storyblk	storytrial	500	0	0	0	0	0	255	0	23	0	1	1.jpg	50pct	50pct	-15
122717	16:00:37	1	1	4.0.10.0	1	10	storyblk	marktrial	0	0	0	0	0	0	255	0	65	0	1	mark.jpg	50pct	50pct	-16
122717	16:00:37	1	1	4.0.10.0	1	11	storyblk	storytrial	500	0	0	0	0	0	255	0	36	0	3	3.jpg	50pct	50pct	-16
122717	16:00:37	1	1	4.0.10.0	1	12	storyblk	marktrial	0	0	0	0	0	0	255	0	60	0	1	mark.jpg	50pct	50pct	-16
122717	16:00:37	1	1	4.0.10.0	1	13	storyblk	storytrial	500	0	0	0	0	0	255	0	33	0	5	5.jpg	50pct	50pct	-15
122717	16:00:37	1	1	4.0.10.0	1	14	storyblk	marktrial	0	0	0	0	0	0	255	0	45	0	1	mark.jpg	50pct	50pct	-16
122717	16:00:37	1	1	4.0.10.0	1	15	storyblk	storytrial	500	0	0	0	0	0	255	0	50	0	7	7.jpg	50pct	50pct	-16
122717	16:00:37	1	1	4.0.10.0	1	16	storyblk	marktrial	0	0	0	0	0	0	255	0	29	0	1	mark.jpg	50pct	50pct	-16
122717	16:01:23	1	1	4.0.10.0	1	1	storyblk	storytrial	500	0	0	0	0	0	255	0	41	0	1	1.jpg	50pct	50pct	-15
122717	16:01:23	1	1	4.0.10.0	1	2	storyblk	marktrial	0	0	0	0	0	0	79	0	44	0	1	mark.jpg	50pct	50pct	-16
122717	16:01:23	1	1	4.0.10.0	1	3	storyblk	storytrial	500	0	0	0	0	0	255	0	52	0	2	2.jpg	50pct	50pct	-16
122717	16:01:23	1	1	4.0.10.0	1	4	storyblk	marktrial	0	0	0	0	0	0	79	0	71	0	1	mark.jpg	50pct	50pct	-15
122717	16:01:23	1	1	4.0.10.0	1	5	storyblk	storytrial	500	0	0	0	0	0	255	0	57	0	3	3.jpg	50pct	50pct	-15
122717	16:01:23	1	1	4.0.10.0	1	6	storyblk	marktrial	0	0	0	0	0	0	79	0	58	0	1	mark.jpg	50pct	50pct	-16
122717	16:01:23	1	1	4.0.10.0	1	7	storyblk	storytrial	500	0	0	0	0	0	255	0	48	0	5	5.jpg	50pct	50pct	-16
122717	16:01:23	1	1	4.0.10.0	1	8	storyblk	marktrial	0	0	0	0	0	0	79	0	51	0	1	mark.jpg	50pct	50pct	-16
122717	16:01:23	1	1	4.0.10.0	1	9	storyblk	storytrial	500	0	0	0	0	0	255	0	63	0	4	4.jpg	50pct	50pct	-15
122717	16:01:23	1	1	4.0.10.0	1	10	storyblk	marktrial	0	0	0	0	0	0	79	0	50	0	1	mark.jpg	50pct	50pct	-16
122717	16:01:23	1	1	4.0.10.0	1	11	storyblk	storytrial	500	0	0	0	0	0	255	0	37	0	7	7.jpg	50pct	50pct	-16
122717	16:01:23	1	1	4.0.10.0	1	12	storyblk	marktrial	0	0	0	0	0	0	255	0	35	0	1	mark.jpg	50pct	50pct	-15
122717	16:01:23	1	1	4.0.10.0	1	13	storyblk	storytrial	500	0	0	0	0	0	255	0	47	0	6	6.jpg	50pct	50pct	-15
122717	16:01:23	1	1	4.0.10.0	1	14	storyblk	marktrial	0	0	0	0	0	0	79	0	57	0	1	mark.jpg	50pct	50pct	-16
122717	16:01:23	1	1	4.0.10.0	1	15	storyblk	storytrial	500	0	0	0	0	0	255	0	40	0	8	8.jpg	50pct	50pct	-15
122717	16:01:23	1	1	4.0.10.0	1	16	storyblk	marktrial	0	0	0	0	0	0	79	0	59	0	1	mark.jpg	50pct	50pct	-16
122717	17:01:22	1	1	4.0.10.0	1	1	storyblk	storytrial	500	0	0	0	0	0	255	0	65	0	8	8.jpg	50pct	50pct	-15	0	0	0	0	0	0	0	0	0	0	0	0	0	0	0	0	0	0	0	0	0	0	0	0	0	0	0	0	0	0	0	0	0	0	0	0	0	0	0	0	0	0	0	0	0	0	0	0	0	0	0	0	0	0	0
122717	17:01:22	1	1	4.0.10.0	1	2	storyblk	marktrial	0	0	0	0	0	0	255	0	48	0	1	mark.jpg	50pct	50pct	-15	0	0	0	0	0	0	0	0	0	0	0	0	0	0	0	0	0	0	0	0	0	0	0	0	0	0	0	0	0	0	0	0	0	0	0	0	0	0	0	0	0	0	0	0	0	0	0	0	0	0	0	0	0	0	0
122717	17:01:22	1	1	4.0.10.0	1	3	storyblk	storytrial	500	0	0	0	0	0	255	0	49	0	1	1.jpg	50pct	50pct	-15	0	0	0	0	0	0	0	0	0	0	0	0	0	0	0	0	0	0	0	0	0	0	0	0	0	0	0	0	0	0	0	0	0	0	0	0	0	0	0	0	0	0	0	0	0	0	0	0	0	0	0	0	0	0	0
122717	17:01:22	1	1	4.0.10.0	1	4	storyblk	marktrial	0	0	0	0	0	0	79	0	48	0	1	mark.jpg	50pct	50pct	-16	0	0	0	0	0	0	0	0	0	0	0	0	0	0	0	0	0	0	0	0	0	0	0	0	0	0	0	0	0	0	0	0	0	0	0	0	0	0	0	0	0	0	0	0	0	0	0	0	0	0	0	0	0	0	0
122717	17:01:22	1	1	4.0.10.0	1	5	storyblk	storytrial	500	0	0	0	0	0	255	0	50	0	3	3.jpg	50pct	50pct	-16	0	0	0	0	0	0	0	0	0	0	0	0	0	0	0	0	0	0	0	0	0	0	0	0	0	0	0	0	0	0	0	0	0	0	0	0	0	0	0	0	0	0	0	0	0	0	0	0	0	0	0	0	0	0	0
122717	17:01:22	1	1	4.0.10.0	1	6	storyblk	marktrial	0	0	0	0	0	0	79	0	47	0	1	mark.jpg	50pct	50pct	-15	0	0	0	0	0	0	0	0	0	0	0	0	0	0	0	0	0	0	0	0	0	0	0	0	0	0	0	0	0	0	0	0	0	0	0	0	0	0	0	0	0	0	0	0	0	0	0	0	0	0	0	0	0	0	0
122717	17:01:22	1	1	4.0.10.0	1	7	storyblk	storytrial	500	0	0	0	0	0	255	0	51	0	5	5.jpg	50pct	50pct	-14	0	0	0	0	0	0	0	0	0	0	0	0	0	0	0	0	0	0	0	0	0	0	0	0	0	0	0	0	0	0	0	0	0	0	0	0	0	0	0	0	0	0	0	0	0	0	0	0	0	0	0	0	0	0	0
122717	17:01:22	1	1	4.0.10.0	1	8	storyblk	marktrial	0	0	0	0	0	0	255	0	18	0	1	mark.jpg	50pct	50pct	-15	0	0	0	0	0	0	0	0	0	0	0	0	0	0	0	0	0	0	0	0	0	0	0	0	0	0	0	0	0	0	0	0	0	0	0	0	0	0	0	0	0	0	0	0	0	0	0	0	0	0	0	0	0	0	0
122717	17:01:22	1	1	4.0.10.0	1	9	storyblk	storytrial	500	0	0	0	0	0	255	0	47	0	4	4.jpg	50pct	50pct	-15	0	0	0	0	0	0	0	0	0	0	0	0	0	0	0	0	0	0	0	0	0	0	0	0	0	0	0	0	0	0	0	0	0	0	0	0	0	0	0	0	0	0	0	0	0	0	0	0	0	0	0	0	0	0	0
122717	17:01:22	1	1	4.0.10.0	1	10	storyblk	marktrial	0	0	0	0	0	0	255	0	42	0	1	mark.jpg	50pct	50pct	-16	0	0	0	0	0	0	0	0	0	0	0	0	0	0	0	0	0	0	0	0	0	0	0	0	0	0	0	0	0	0	0	0	0	0	0	0	0	0	0	0	0	0	0	0	0	0	0	0	0	0	0	0	0	0	0
122717	17:01:22	1	1	4.0.10.0	1	11	storyblk	storytrial	500	0	0	0	0	0	255	0	38	0	6	6.jpg	50pct	50pct	-15	0	0	0	0	0	0	0	0	0	0	0	0	0	0	0	0	0	0	0	0	0	0	0	0	0	0	0	0	0	0	0	0	0	0	0	0	0	0	0	0	0	0	0	0	0	0	0	0	0	0	0	0	0	0	0
122717	17:01:22	1	1	4.0.10.0	1	12	storyblk	marktrial	0	0	0	0	0	0	79	0	51	0	1	mark.jpg	50pct	50pct	-16	0	0	0	0	0	0	0	0	0	0	0	0	0	0	0	0	0	0	0	0	0	0	0	0	0	0	0	0	0	0	0	0	0	0	0	0	0	0	0	0	0	0	0	0	0	0	0	0	0	0	0	0	0	0	0
122717	17:01:22	1	1	4.0.10.0	1	13	storyblk	storytrial	500	0	0	0	0	0	255	0	53	0	2	2.jpg	50pct	50pct	-15	0	0	0	0	0	0	0	0	0	0	0	0	0	0	0	0	0	0	0	0	0	0	0	0	0	0	0	0	0	0	0	0	0	0	0	0	0	0	0	0	0	0	0	0	0	0	0	0	0	0	0	0	0	0	0
122717	17:01:22	1	1	4.0.10.0	1	14	storyblk	marktrial	0	0	0	0	0	0	79	0	54	0	1	mark.jpg	50pct	50pct	-15	0	0	0	0	0	0	0	0	0	0	0	0	0	0	0	0	0	0	0	0	0	0	0	0	0	0	0	0	0	0	0	0	0	0	0	0	0	0	0	0	0	0	0	0	0	0	0	0	0	0	0	0	0	0	0
122717	17:01:22	1	1	4.0.10.0	1	15	storyblk	storytrial	500	0	0	0	0	0	255	0	54	0	7	7.jpg	50pct	50pct	-15	0	0	0	0	0	0	0	0	0	0	0	0	0	0	0	0	0	0	0	0	0	0	0	0	0	0	0	0	0	0	0	0	0	0	0	0	0	0	0	0	0	0	0	0	0	0	0	0	0	0	0	0	0	0	0
122717	17:01:22	1	1	4.0.10.0	1	16	storyblk	marktrial	0	0	0	0	0	0	255	0	59	0	1	mark.jpg	50pct	50pct	-15	0	0	0	0	0	0	0	0	0	0	0	0	0	0	0	0	0	0	0	0	0	0	0	0	0	0	0	0	0	0	0	0	0	0	0	0	0	0	0	0	0	0	0	0	0	0	0	0	0	0	0	0	0	0	0
122717	17:07:32	1	1	4.0.10.0	1	1	storyblk	storytrial	500	0	0	0	0	0	255	0	53	0	2	2.jpg	50pct	50pct	-15	0	0	0	0	0	0	0	0	0	0	0	0	0	0	0	0	0	0	0	0	0	0	0	0	0	0	0	0	0	0	0	0	0	0	0	0	0	0	0	0	0	0	0	0	0	0	0	0	0	0	0	0	0	0	0
122717	17:07:32	1	1	4.0.10.0	1	2	storyblk	marktrial	0	0	0	0	0	0	255	0	49	0	1	mark.jpg	50pct	50pct	-16	0	0	0	0	0	0	0	0	0	0	0	0	0	0	0	0	0	0	0	0	0	0	0	0	0	0	0	0	0	0	0	0	0	0	0	0	0	0	0	0	0	0	0	0	0	0	0	0	0	0	0	0	0	0	0
122717	17:07:32	1	1	4.0.10.0	1	3	storyblk	storytrial	500	0	0	0	0	0	255	0	54	0	7	7.jpg	50pct	50pct	-15	0	0	0	0	0	0	0	0	0	0	0	0	0	0	0	0	0	0	0	0	0	0	0	0	0	0	0	0	0	0	0	0	0	0	0	0	0	0	0	0	0	0	0	0	0	0	0	0	0	0	0	0	0	0	0
122717	17:07:32	1	1	4.0.10.0	1	4	storyblk	marktrial	0	0	0	0	0	0	79	0	57	0	1	mark.jpg	50pct	50pct	-15	0	0	0	0	0	0	0	0	0	0	0	0	0	0	0	0	0	0	0	0	0	0	0	0	0	0	0	0	0	0	0	0	0	0	0	0	0	0	0	0	0	0	0	0	0	0	0	0	0	0	0	0	0	0	0
122717	17:07:32	1	1	4.0.10.0	1	5	storyblk	storytrial	500	0	0	0	0	0	255	0	51	0	4	4.jpg	50pct	50pct	-15	0	0	0	0	0	0	0	0	0	0	0	0	0	0	0	0	0	0	0	0	0	0	0	0	0	0	0	0	0	0	0	0	0	0	0	0	0	0	0	0	0	0	0	0	0	0	0	0	0	0	0	0	0	0	0
122717	17:07:32	1	1	4.0.10.0	1	6	storyblk	marktrial	0	0	0	0	0	0	79	0	47	0	1	mark.jpg	50pct	50pct	-16	0	0	0	0	0	0	0	0	0	0	0	0	0	0	0	0	0	0	0	0	0	0	0	0	0	0	0	0	0	0	0	0	0	0	0	0	0	0	0	0	0	0	0	0	0	0	0	0	0	0	0	0	0	0	0
122717	17:07:32	1	1	4.0.10.0	1	7	storyblk	storytrial	500	0	0	0	0	0	255	0	26	0	3	3.jpg	50pct	50pct	-15	0	0	0	0	0	0	0	0	0	0	0	0	0	0	0	0	0	0	0	0	0	0	0	0	0	0	0	0	0	0	0	0	0	0	0	0	0	0	0	0	0	0	0	0	0	0	0	0	0	0	0	0	0	0	0
122717	17:07:32	1	1	4.0.10.0	1	8	storyblk	marktrial	0	0	0	0	0	0	79	0	45	0	1	mark.jpg	50pct	50pct	-16	0	0	0	0	0	0	0	0	0	0	0	0	0	0	0	0	0	0	0	0	0	0	0	0	0	0	0	0	0	0	0	0	0	0	0	0	0	0	0	0	0	0	0	0	0	0	0	0	0	0	0	0	0	0	0
122717	17:07:32	1	1	4.0.10.0	1	9	storyblk	storytrial	500	0	0	0	0	0	255	0	35	0	1	1.jpg	50pct	50pct	-15	0	0	0	0	0	0	0	0	0	0	0	0	0	0	0	0	0	0	0	0	0	0	0	0	0	0	0	0	0	0	0	0	0	0	0	0	0	0	0	0	0	0	0	0	0	0	0	0	0	0	0	0	0	0	0
122717	17:07:32	1	1	4.0.10.0	1	10	storyblk	marktrial	0	0	0	0	0	0	79	0	29	0	1	mark.jpg	50pct	50pct	-16	0	0	0	0	0	0	0	0	0	0	0	0	0	0	0	0	0	0	0	0	0	0	0	0	0	0	0	0	0	0	0	0	0	0	0	0	0	0	0	0	0	0	0	0	0	0	0	0	0	0	0	0	0	0	0
122717	17:07:32	1	1	4.0.10.0	1	11	storyblk	storytrial	500	0	0	0	0	0	255	0	49	0	8	8.jpg	50pct	50pct	-15	0	0	0	0	0	0	0	0	0	0	0	0	0	0	0	0	0	0	0	0	0	0	0	0	0	0	0	0	0	0	0	0	0	0	0	0	0	0	0	0	0	0	0	0	0	0	0	0	0	0	0	0	0	0	0
122717	17:07:32	1	1	4.0.10.0	1	12	storyblk	marktrial	0	0	0	0	0	0	255	0	43	0	1	mark.jpg	50pct	50pct	-15	0	0	0	0	0	0	0	0	0	0	0	0	0	0	0	0	0	0	0	0	0	0	0	0	0	0	0	0	0	0	0	0	0	0	0	0	0	0	0	0	0	0	0	0	0	0	0	0	0	0	0	0	0	0	0
122717	17:07:32	1	1	4.0.10.0	1	13	storyblk	storytrial	500	0	0	0	0	0	255	0	23	0	5	5.jpg	50pct	50pct	-15	0	0	0	0	0	0	0	0	0	0	0	0	0	0	0	0	0	0	0	0	0	0	0	0	0	0	0	0	0	0	0	0	0	0	0	0	0	0	0	0	0	0	0	0	0	0	0	0	0	0	0	0	0	0	0
122717	17:07:32	1	1	4.0.10.0	1	14	storyblk	marktrial	0	0	0	0	0	0	79	0	44	0	1	mark.jpg	50pct	50pct	-15	0	0	0	0	0	0	0	0	0	0	0	0	0	0	0	0	0	0	0	0	0	0	0	0	0	0	0	0	0	0	0	0	0	0	0	0	0	0	0	0	0	0	0	0	0	0	0	0	0	0	0	0	0	0	0
122717	17:07:32	1	1	4.0.10.0	1	15	storyblk	storytrial	500	0	0	0	0	0	255	0	61	0	6	6.jpg	50pct	50pct	-16	0	0	0	0	0	0	0	0	0	0	0	0	0	0	0	0	0	0	0	0	0	0	0	0	0	0	0	0	0	0	0	0	0	0	0	0	0	0	0	0	0	0	0	0	0	0	0	0	0	0	0	0	0	0	0
122717	17:07:32	1	1	4.0.10.0	1	16	storyblk	marktrial	0	0	0	0	0	0	255	0	46	0	1	mark.jpg	50pct	50pct	-16	0	0	0	0	0	0	0	0	0	0	0	0	0	0	0	0	0	0	0	0	0	0	0	0	0	0	0	0	0	0	0	0	0	0	0	0	0	0	0	0	0	0	0	0	0	0	0	0	0	0	0	0	0	0	0
122717	17:10:34	1	1	4.0.10.0	1	1	storyblk	storytrial	500	0	0	0	0	0	255	0	76	0	3	3.jpg	50pct	50pct	-15	0	0	0	0	0	0	0	0	0	0	0	0	0	0	0	0	0	0	0	0	0	0	0	0	0	0	0	0	0	0	0	0	0	0	0	0	0	0	0	0	0	0	0	0	0	0	0	0	0	0	0	0	0	0	0
122717	17:10:34	1	1	4.0.10.0	1	2	storyblk	marktrial	0	0	0	0	0	0	79	0	40	0	1	mark.jpg	50pct	50pct	-16	0	0	0	0	0	0	0	0	0	0	0	0	0	0	0	0	0	0	0	0	0	0	0	0	0	0	0	0	0	0	0	0	0	0	0	0	0	0	0	0	0	0	0	0	0	0	0	0	0	0	0	0	0	0	0
122717	17:10:34	1	1	4.0.10.0	1	3	storyblk	storytrial	500	0	0	0	0	0	255	0	49	0	8	8.jpg	50pct	50pct	-15	0	0	0	0	0	0	0	0	0	0	0	0	0	0	0	0	0	0	0	0	0	0	0	0	0	0	0	0	0	0	0	0	0	0	0	0	0	0	0	0	0	0	0	0	0	0	0	0	0	0	0	0	0	0	0
122717	17:10:34	1	1	4.0.10.0	1	4	storyblk	marktrial	0	0	0	0	0	0	79	0	66	0	1	mark.jpg	50pct	50pct	-16	0	0	0	0	0	0	0	0	0	0	0	0	0	0	0	0	0	0	0	0	0	0	0	0	0	0	0	0	0	0	0	0	0	0	0	0	0	0	0	0	0	0	0	0	0	0	0	0	0	0	0	0	0	0	0
122717	17:10:34	1	1	4.0.10.0	1	5	storyblk	storytrial	500	0	0	0	0	0	255	0	52	0	7	7.jpg	50pct	50pct	-15	0	0	0	0	0	0	0	0	0	0	0	0	0	0	0	0	0	0	0	0	0	0	0	0	0	0	0	0	0	0	0	0	0	0	0	0	0	0	0	0	0	0	0	0	0	0	0	0	0	0	0	0	0	0	0
122717	17:10:34	1	1	4.0.10.0	1	6	storyblk	marktrial	0	0	0	0	0	0	79	0	61	0	1	mark.jpg	50pct	50pct	-16	0	0	0	0	0	0	0	0	0	0	0	0	0	0	0	0	0	0	0	0	0	0	0	0	0	0	0	0	0	0	0	0	0	0	0	0	0	0	0	0	0	0	0	0	0	0	0	0	0	0	0	0	0	0	0
122717	17:10:34	1	1	4.0.10.0	1	7	storyblk	storytrial	500	0	0	0	0	0	255	0	44	0	4	4.jpg	50pct	50pct	-15	0	0	0	0	0	0	0	0	0	0	0	0	0	0	0	0	0	0	0	0	0	0	0	0	0	0	0	0	0	0	0	0	0	0	0	0	0	0	0	0	0	0	0	0	0	0	0	0	0	0	0	0	0	0	0
122717	17:10:34	1	1	4.0.10.0	1	8	storyblk	marktrial	0	0	0	0	0	0	255	0	54	0	1	mark.jpg	50pct	50pct	-15	0	0	0	0	0	0	0	0	0	0	0	0	0	0	0	0	0	0	0	0	0	0	0	0	0	0	0	0	0	0	0	0	0	0	0	0	0	0	0	0	0	0	0	0	0	0	0	0	0	0	0	0	0	0	0
122717	17:10:34	1	1	4.0.10.0	1	9	storyblk	storytrial	500	0	0	0	0	0	255	0	49	0	2	2.jpg	50pct	50pct	-15	0	0	0	0	0	0	0	0	0	0	0	0	0	0	0	0	0	0	0	0	0	0	0	0	0	0	0	0	0	0	0	0	0	0	0	0	0	0	0	0	0	0	0	0	0	0	0	0	0	0	0	0	0	0	0
122717	17:10:34	1	1	4.0.10.0	1	10	storyblk	marktrial	0	0	0	0	0	0	255	0	48	0	1	mark.jpg	50pct	50pct	-16	0	0	0	0	0	0	0	0	0	0	0	0	0	0	0	0	0	0	0	0	0	0	0	0	0	0	0	0	0	0	0	0	0	0	0	0	0	0	0	0	0	0	0	0	0	0	0	0	0	0	0	0	0	0	0
122717	17:10:34	1	1	4.0.10.0	1	11	storyblk	storytrial	500	0	0	0	0	0	255	0	49	0	6	6.jpg	50pct	50pct	-15	0	0	0	0	0	0	0	0	0	0	0	0	0	0	0	0	0	0	0	0	0	0	0	0	0	0	0	0	0	0	0	0	0	0	0	0	0	0	0	0	0	0	0	0	0	0	0	0	0	0	0	0	0	0	0
122717	17:10:34	1	1	4.0.10.0	1	12	storyblk	marktrial	0	0	0	0	0	0	255	0	49	0	1	mark.jpg	50pct	50pct	-16	0	0	0	0	0	0	0	0	0	0	0	0	0	0	0	0	0	0	0	0	0	0	0	0	0	0	0	0	0	0	0	0	0	0	0	0	0	0	0	0	0	0	0	0	0	0	0	0	0	0	0	0	0	0	0
122717	17:10:34	1	1	4.0.10.0	1	13	storyblk	storytrial	500	0	0	0	0	0	255	0	34	0	5	5.jpg	50pct	50pct	-15	0	0	0	0	0	0	0	0	0	0	0	0	0	0	0	0	0	0	0	0	0	0	0	0	0	0	0	0	0	0	0	0	0	0	0	0	0	0	0	0	0	0	0	0	0	0	0	0	0	0	0	0	0	0	0
122717	17:10:34	1	1	4.0.10.0	1	14	storyblk	marktrial	0	0	0	0	0	0	255	0	48	0	1	mark.jpg	50pct	50pct	-16	0	0	0	0	0	0	0	0	0	0	0	0	0	0	0	0	0	0	0	0	0	0	0	0	0	0	0	0	0	0	0	0	0	0	0	0	0	0	0	0	0	0	0	0	0	0	0	0	0	0	0	0	0	0	0
122717	17:10:34	1	1	4.0.10.0	1	15	storyblk	storytrial	500	0	0	0	0	0	255	0	43	0	1	1.jpg	50pct	50pct	-15	0	0	0	0	0	0	0	0	0	0	0	0	0	0	0	0	0	0	0	0	0	0	0	0	0	0	0	0	0	0	0	0	0	0	0	0	0	0	0	0	0	0	0	0	0	0	0	0	0	0	0	0	0	0	0
122717	17:10:34	1	1	4.0.10.0	1	16	storyblk	marktrial	0	0	0	0	0	0	79	0	47	0	1	mark.jpg	50pct	50pct	-16	0	0	0	0	0	0	0	0	0	0	0	0	0	0	0	0	0	0	0	0	0	0	0	0	0	0	0	0	0	0	0	0	0	0	0	0	0	0	0	0	0	0	0	0	0	0	0	0	0	0	0	0	0	0	0
